<Bundle xmlns="http://hl7.org/fhir">
    <type value="transaction"/>
    <!-- Organization -->
    <entry>
        <fullUrl value="urn:uuid:bb73165c-c7b9-4342-8e28-531f07fa7735"/>
        <resource>
            <!-- Test_ZARS -->
            <Organization xmlns="http://hl7.org/fhir">
                <meta>
                    <profile value="http://dsf.dev/fhir/StructureDefinition/organization"/>
                    <tag>
                        <system value="http://dsf.dev/fhir/CodeSystem/read-access-tag"/>
                        <code value="ALL"/>
                    </tag>
                </meta>
                <extension url="http://dsf.dev/fhir/StructureDefinition/extension-certificate-thumbprint">
                    <valueString value="TODO"/>
                </extension>
                <identifier>
                    <system value="http://dsf.dev/sid/organization-identifier"/>
                    <value value="Test_ZARS"/>
                </identifier>
                <active value="true"/>
                <type>
                    <coding>
                        <system value="http://dsf.dev/fhir/CodeSystem/organization-role"/>
                        <code value="HRP"/>
                    </coding>
                </type>
                <name value="Test ZARS"/>
                <endpoint>
                    <reference value="urn:uuid:e6af43e9-76ff-46d7-b9aa-e5ee74562ab1"/>
                    <type value="Endpoint"/>
                </endpoint>
            </Organization>
        </resource>
        <request>
            <method value="POST"/>
            <url value="Organization"/>
            <ifNoneExist value="identifier=http://dsf.dev/sid/organization-identifier|Test_ZARS"/>
        </request>
    </entry>
    <entry>
        <fullUrl value="urn:uuid:cf62edc2-cc5d-43ed-ac0e-caf09f7326c3"/>
        <resource>
            <Organization xmlns="http://hl7.org/fhir">
                <meta>
                    <profile value="http://dsf.dev/fhir/StructureDefinition/organization"/>
                    <tag>
                        <system value="http://dsf.dev/fhir/CodeSystem/read-access-tag"/>
                        <code value="ALL"/>
                    </tag>
                </meta>
                <extension url="http://dsf.dev/fhir/StructureDefinition/extension-certificate-thumbprint">
                    <valueString value="TODO"/>
                </extension>
                <identifier>
                    <system value="http://dsf.dev/sid/organization-identifier"/>
                    <value value="Test_DIC_1"/>
                </identifier>
                <active value="true"/>
                <type>
                    <coding>
                        <system value="http://dsf.dev/fhir/CodeSystem/organization-role"/>
                        <code value="DIC"/>
                    </coding>
                </type>
                <name value="Test DIC 1"/>
                <endpoint>
                    <reference value="urn:uuid:ad0a4700-6f4c-4f4b-bf70-3a7a3f24f2fa"/>
                    <type value="Endpoint"/>
                </endpoint>
            </Organization>
        </resource>
        <request>
            <method value="POST"/>
            <url value="Organization"/>
            <ifNoneExist value="identifier=http://dsf.dev/sid/organization-identifier|Test_DIC_1"/>
        </request>
    </entry>
    <entry>
        <fullUrl value="urn:uuid:55901940-02db-40bf-9a6e-bdfdd0ddb7bf"/>
        <resource>
            <Organization xmlns="http://hl7.org/fhir">
                <meta>
                    <profile value="http://dsf.dev/fhir/StructureDefinition/organization"/>
                    <tag>
                        <system value="http://dsf.dev/fhir/CodeSystem/read-access-tag"/>
                        <code value="ALL"/>
                    </tag>
                </meta>
                <extension url="http://dsf.dev/fhir/StructureDefinition/extension-certificate-thumbprint">
                    <valueString value="TODO"/>
                </extension>
                <identifier>
                    <system value="http://dsf.dev/sid/organization-identifier"/>
                    <value value="Test_DIC_2"/>
                </identifier>
                <active value="true"/>
                <type>
                    <coding>
                        <system value="http://dsf.dev/fhir/CodeSystem/organization-role"/>
                        <code value="DIC"/>
                    </coding>
                </type>
                <name value="Test DIC 2"/>
                <endpoint>
                    <reference value="urn:uuid:6b2ba3fb-b8eb-4677-86fa-9e5285736b92"/>
                    <type value="Endpoint"/>
                </endpoint>
            </Organization>
        </resource>
        <request>
            <method value="POST"/>
            <url value="Organization"/>
            <ifNoneExist value="identifier=http://dsf.dev/sid/organization-identifier|Test_DIC_2"/>
        </request>
    </entry>
    <entry>
        <fullUrl value="urn:uuid:c9c81955-3ca6-40f9-9143-878bdef8bc96"/>
        <resource>
            <Organization xmlns="http://hl7.org/fhir">
                <meta>
                    <profile value="http://dsf.dev/fhir/StructureDefinition/organization"/>
                    <tag>
                        <system value="http://dsf.dev/fhir/CodeSystem/read-access-tag"/>
                        <code value="ALL"/>
                    </tag>
                </meta>
                <extension url="http://dsf.dev/fhir/StructureDefinition/extension-certificate-thumbprint">
                    <valueString value="TODO"/>
                </extension>
                <identifier>
                    <system value="http://dsf.dev/sid/organization-identifier"/>
                    <value value="Test_DIC_3"/>
                </identifier>
                <active value="true"/>
                <type>
                    <coding>
                        <system value="http://dsf.dev/fhir/CodeSystem/organization-role"/>
                        <code value="DIC"/>
                    </coding>
                </type>
                <name value="Test DIC 3"/>
                <endpoint>
                    <reference value="urn:uuid:d2de89b2-8eb4-45c4-8e6f-6c64a7af2b69"/>
                    <type value="Endpoint"/>
                </endpoint>
            </Organization>
        </resource>
        <request>
            <method value="POST"/>
            <url value="Organization"/>
            <ifNoneExist value="identifier=http://dsf.dev/sid/organization-identifier|Test_DIC_3"/>
        </request>
    </entry>
    <entry>
        <fullUrl value="urn:uuid:9e40709b-c9a4-4f83-adfe-5a9f12c49cda"/>
        <resource>
            <Organization xmlns="http://hl7.org/fhir">
                <meta>
                    <profile value="http://dsf.dev/fhir/StructureDefinition/organization"/>
                    <tag>
                        <system value="http://dsf.dev/fhir/CodeSystem/read-access-tag"/>
                        <code value="ALL"/>
                    </tag>
                </meta>
                <extension url="http://dsf.dev/fhir/StructureDefinition/extension-certificate-thumbprint">
                    <valueString value="TODO"/>
                </extension>
                <identifier>
                    <system value="http://dsf.dev/sid/organization-identifier"/>
                    <value value="Test_DIC_4"/>
                </identifier>
                <active value="true"/>
                <type>
                    <coding>
                        <system value="http://dsf.dev/fhir/CodeSystem/organization-role"/>
                        <code value="DIC"/>
                    </coding>
                </type>
                <name value="Test DIC 4"/>
                <endpoint>
                    <reference value="urn:uuid:5e60441a-2f97-4e73-9552-232f1349d079"/>
                    <type value="Endpoint"/>
                </endpoint>
            </Organization>
        </resource>
        <request>
            <method value="POST"/>
            <url value="Organization"/>
            <ifNoneExist value="identifier=http://dsf.dev/sid/organization-identifier|Test_DIC_4"/>
        </request>
    </entry>
    <entry>
        <fullUrl value="urn:uuid:aa670c9a-5a6a-45ac-90e8-7e72b3c39f23"/>
        <resource>
            <!-- Test_Broker -->
            <Organization xmlns="http://hl7.org/fhir">
                <meta>
                    <profile value="http://dsf.dev/fhir/StructureDefinition/organization"/>
                    <tag>
                        <system value="http://dsf.dev/fhir/CodeSystem/read-access-tag"/>
                        <code value="ALL"/>
                    </tag>
                </meta>
                <extension url="http://dsf.dev/fhir/StructureDefinition/extension-certificate-thumbprint">
                    <valueString value="TODO"/>
                </extension>
                <identifier>
                    <system value="http://dsf.dev/sid/organization-identifier"/>
                    <value value="Test_Broker"/>
                </identifier>
                <active value="true"/>
                <type>
                    <coding>
                        <system value="http://dsf.dev/fhir/CodeSystem/organization-role"/>
                        <code value="DIC"/>
                    </coding>
                </type>
                <name value="Test Broker"/>
                <endpoint>
                    <reference value="urn:uuid:4179883e-2776-45c4-9d5a-3be299bbe39a"/>
                    <type value="Endpoint"/>
                </endpoint>
            </Organization>
        </resource>
        <request>
            <method value="POST"/>
            <url value="Organization"/>
            <ifNoneExist value="identifier=http://dsf.dev/sid/organization-identifier|Test_Broker"/>
        </request>
    </entry>
    <!-- Endpoint -->
    <entry>
        <fullUrl value="urn:uuid:e6af43e9-76ff-46d7-b9aa-e5ee74562ab1"/>
        <resource>
            <Endpoint xmlns="http://hl7.org/fhir">
                <meta>
                    <profile value="http://dsf.dev/fhir/StructureDefinition/endpoint"/>
                    <tag>
                        <system value="http://dsf.dev/fhir/CodeSystem/read-access-tag"/>
                        <code value="ALL"/>
                    </tag>
                </meta>
                <identifier>
                    <system value="http://dsf.dev/sid/endpoint-identifier"/>
                    <value value="Test_ZARS_Endpoint"/>
                </identifier>
                <status value="active"/>
                <connectionType>
                    <system value="http://terminology.hl7.org/CodeSystem/endpoint-connection-type"/>
                    <code value="hl7-fhir-rest"/>
                </connectionType>
                <managingOrganization>
                    <reference value="urn:uuid:bb73165c-c7b9-4342-8e28-531f07fa7735"/>
                    <type value="Organization"/>
                </managingOrganization>
                <payloadType>
                    <coding>
                        <system value="http://hl7.org/fhir/resource-types"/>
                        <code value="Task"/>
                    </coding>
                </payloadType>
                <payloadMimeType value="application/fhir+json"/>
                <payloadMimeType value="application/fhir+xml"/>
                <address value="https://zars/fhir"/>
            </Endpoint>
        </resource>
        <request>
            <method value="POST"/>
            <url value="Endpoint"/>
            <ifNoneExist
                    value="identifier=http://dsf.dev/sid/endpoint-identifier|Test_ZARS_Endpoint"/>
        </request>
    </entry>
    <entry>
        <fullUrl value="urn:uuid:ad0a4700-6f4c-4f4b-bf70-3a7a3f24f2fa"/>
        <resource>
            <Endpoint xmlns="http://hl7.org/fhir">
                <meta>
                    <profile value="http://dsf.dev/fhir/StructureDefinition/endpoint"/>
                    <tag>
                        <system value="http://dsf.dev/fhir/CodeSystem/read-access-tag"/>
                        <code value="ALL"/>
                    </tag>
                </meta>
                <identifier>
                    <system value="http://dsf.dev/sid/endpoint-identifier"/>
                    <value value="Test_DIC_1_Endpoint"/>
                </identifier>
                <status value="active"/>
                <connectionType>
                    <system value="http://terminology.hl7.org/CodeSystem/endpoint-connection-type"/>
                    <code value="hl7-fhir-rest"/>
                </connectionType>
                <managingOrganization>
                    <reference value="urn:uuid:cf62edc2-cc5d-43ed-ac0e-caf09f7326c3"/>
                    <type value="Organization"/>
                </managingOrganization>
                <payloadType>
                    <coding>
                        <system value="http://hl7.org/fhir/resource-types"/>
                        <code value="Task"/>
                    </coding>
                </payloadType>
                <payloadMimeType value="application/fhir+json"/>
                <payloadMimeType value="application/fhir+xml"/>
                <address value="https://dic-1/fhir"/>
            </Endpoint>
        </resource>
        <request>
            <method value="POST"/>
            <url value="Endpoint"/>
            <ifNoneExist
                    value="identifier=http://dsf.dev/sid/endpoint-identifier|Test_DIC_1_Endpoint"/>
        </request>
    </entry>
    <entry>
        <fullUrl value="urn:uuid:6b2ba3fb-b8eb-4677-86fa-9e5285736b92"/>
        <resource>
            <Endpoint xmlns="http://hl7.org/fhir">
                <meta>
                    <profile value="http://dsf.dev/fhir/StructureDefinition/endpoint"/>
                    <tag>
                        <system value="http://dsf.dev/fhir/CodeSystem/read-access-tag"/>
                        <code value="ALL"/>
                    </tag>
                </meta>
                <identifier>
                    <system value="http://dsf.dev/sid/endpoint-identifier"/>
                    <value value="Test_DIC_2_Endpoint"/>
                </identifier>
                <status value="active"/>
                <connectionType>
                    <system value="http://terminology.hl7.org/CodeSystem/endpoint-connection-type"/>
                    <code value="hl7-fhir-rest"/>
                </connectionType>
                <managingOrganization>
                    <reference value="urn:uuid:55901940-02db-40bf-9a6e-bdfdd0ddb7bf"/>
                    <type value="Organization"/>
                </managingOrganization>
                <payloadType>
                    <coding>
                        <system value="http://hl7.org/fhir/resource-types"/>
                        <code value="Task"/>
                    </coding>
                </payloadType>
                <payloadMimeType value="application/fhir+json"/>
                <payloadMimeType value="application/fhir+xml"/>
                <address value="https://dic-2/fhir"/>
            </Endpoint>
        </resource>
        <request>
            <method value="POST"/>
            <url value="Endpoint"/>
            <ifNoneExist
                    value="identifier=http://dsf.dev/sid/endpoint-identifier|Test_DIC_2_Endpoint"/>
        </request>
    </entry>
    <entry>
        <fullUrl value="urn:uuid:d2de89b2-8eb4-45c4-8e6f-6c64a7af2b69"/>
        <resource>
            <Endpoint xmlns="http://hl7.org/fhir">
                <meta>
                    <profile value="http://dsf.dev/fhir/StructureDefinition/endpoint"/>
                    <tag>
                        <system value="http://dsf.dev/fhir/CodeSystem/read-access-tag"/>
                        <code value="ALL"/>
                    </tag>
                </meta>
                <identifier>
                    <system value="http://dsf.dev/sid/endpoint-identifier"/>
                    <value value="Test_DIC_3_Endpoint"/>
                </identifier>
                <status value="active"/>
                <connectionType>
                    <system value="http://terminology.hl7.org/CodeSystem/endpoint-connection-type"/>
                    <code value="hl7-fhir-rest"/>
                </connectionType>
                <managingOrganization>
                    <reference value="urn:uuid:c9c81955-3ca6-40f9-9143-878bdef8bc96"/>
                    <type value="Organization"/>
                </managingOrganization>
                <payloadType>
                    <coding>
                        <system value="http://hl7.org/fhir/resource-types"/>
                        <code value="Task"/>
                    </coding>
                </payloadType>
                <payloadMimeType value="application/fhir+json"/>
                <payloadMimeType value="application/fhir+xml"/>
                <address value="https://dic-3/fhir"/>
            </Endpoint>
        </resource>
        <request>
            <method value="POST"/>
            <url value="Endpoint"/>
            <ifNoneExist
                    value="identifier=http://dsf.dev/sid/endpoint-identifier|Test_DIC_3_Endpoint"/>
        </request>
    </entry>
    <entry>
        <fullUrl value="urn:uuid:5e60441a-2f97-4e73-9552-232f1349d079"/>
        <resource>
            <Endpoint xmlns="http://hl7.org/fhir">
                <meta>
                    <profile value="http://dsf.dev/fhir/StructureDefinition/endpoint"/>
                    <tag>
                        <system value="http://dsf.dev/fhir/CodeSystem/read-access-tag"/>
                        <code value="ALL"/>
                    </tag>
                </meta>
                <identifier>
                    <system value="http://dsf.dev/sid/endpoint-identifier"/>
                    <value value="Test_DIC_4_Endpoint"/>
                </identifier>
                <status value="active"/>
                <connectionType>
                    <system value="http://terminology.hl7.org/CodeSystem/endpoint-connection-type"/>
                    <code value="hl7-fhir-rest"/>
                </connectionType>
                <managingOrganization>
                    <reference value="urn:uuid:9e40709b-c9a4-4f83-adfe-5a9f12c49cda"/>
                    <type value="Organization"/>
                </managingOrganization>
                <payloadType>
                    <coding>
                        <system value="http://hl7.org/fhir/resource-types"/>
                        <code value="Task"/>
                    </coding>
                </payloadType>
                <payloadMimeType value="application/fhir+json"/>
                <payloadMimeType value="application/fhir+xml"/>
                <address value="https://dic-4/fhir"/>
            </Endpoint>
        </resource>
        <request>
            <method value="POST"/>
            <url value="Endpoint"/>
            <ifNoneExist
                    value="identifier=http://dsf.dev/sid/endpoint-identifier|Test_DIC_4_Endpoint"/>
        </request>
    </entry>
    <entry>
        <fullUrl value="urn:uuid:4179883e-2776-45c4-9d5a-3be299bbe39a"/>
        <resource>
            <!--            Test Broker Endpoint-->
            <Endpoint xmlns="http://hl7.org/fhir">
                <meta>
                    <profile value="http://dsf.dev/fhir/StructureDefinition/endpoint"/>
                    <tag>
                        <system value="http://dsf.dev/fhir/CodeSystem/read-access-tag"/>
                        <code value="ALL"/>
                    </tag>
                </meta>
                <identifier>
                    <system value="http://dsf.dev/sid/endpoint-identifier"/>
                    <value value="Test_Broker_Endpoint"/>
                </identifier>
                <status value="active"/>
                <connectionType>
                    <system value="http://terminology.hl7.org/CodeSystem/endpoint-connection-type"/>
                    <code value="hl7-fhir-rest"/>
                </connectionType>
                <name value="Test Broker Endpoint"/>
                <managingOrganization>
                    <reference value="urn:uuid:aa670c9a-5a6a-45ac-90e8-7e72b3c39f23"/>
                    <type value="Organization"/>
                </managingOrganization>
                <payloadType>
                    <coding>
                        <system value="http://hl7.org/fhir/resource-types"/>
                        <code value="Task"/>
                    </coding>
                </payloadType>
                <payloadMimeType value="application/fhir+json"/>
                <payloadMimeType value="application/fhir+xml"/>
                <address value="https://broker/fhir"/>
            </Endpoint>
        </resource>
        <request>
            <method value="POST"/>
            <url value="Endpoint"/>
            <ifNoneExist
                    value="identifier=http://dsf.dev/sid/endpoint-identifier|Test_Broker_Endpoint"/>
        </request>
    </entry>
    <!-- Organization Affiliation -->
    <entry>
        <fullUrl value="urn:uuid:c4a7b553-01b1-4b50-bcb3-1467f5ae6791"/>
        <resource>
            <Organization xmlns="http://hl7.org/fhir">
                <meta>
                    <profile value="http://dsf.dev/fhir/StructureDefinition/organization-parent"/>
                    <tag>
                        <system value="http://dsf.dev/fhir/CodeSystem/read-access-tag"/>
                        <code value="ALL"/>
                    </tag>
                </meta>
                <identifier>
                    <system value="http://dsf.dev/sid/organization-identifier"/>
                    <value value="medizininformatik-initiative.de"/>
                </identifier>
                <active value="true"/>
                <name value="Medizininformatik Initiative"/>
            </Organization>
        </resource>
        <request>
            <method value="POST"/>
            <url value="Organization"/>
            <ifNoneExist
                    value="identifier=http://dsf.dev/sid/organization-identifier|medizininformatik-initiative.de"/>
        </request>
    </entry>
    <entry>
        <fullUrl value="urn:uuid:6da23450-e2e2-49e1-8591-02c553d53e3b"/>
        <resource>
            <OrganizationAffiliation xmlns="http://hl7.org/fhir">
                <meta>
                    <profile value="http://dsf.dev/fhir/StructureDefinition/organization-affiliation"/>
                    <tag>
                        <system value="http://dsf.dev/fhir/CodeSystem/read-access-tag"/>
                        <code value="ALL"/>
                    </tag>
                </meta>
                <active value="true"/>
                <organization>
                    <reference value="urn:uuid:c4a7b553-01b1-4b50-bcb3-1467f5ae6791"/>
                    <type value="Organization"/>
                </organization>
                <participatingOrganization>
                    <reference value="urn:uuid:bb73165c-c7b9-4342-8e28-531f07fa7735"/>
                    <type value="Organization"/>
                </participatingOrganization>
                <code>
                    <coding>
                        <system value="http://dsf.dev/fhir/CodeSystem/organization-role"/>
                        <code value="HRP"/>
                    </coding>
                </code>
                <endpoint>
                    <reference value="urn:uuid:e6af43e9-76ff-46d7-b9aa-e5ee74562ab1"/>
                    <type value="Endpoint"/>
                </endpoint>
            </OrganizationAffiliation>
        </resource>
        <request>
            <method value="POST"/>
            <url value="OrganizationAffiliation"/>
            <ifNoneExist
                    value="primary-organization:identifier=http://dsf.dev/sid/organization-identifier|medizininformatik-initiative.de&amp;participating-organization:identifier=http://dsf.dev/sid/organization-identifier|Test_ZARS"/>
        </request>
    </entry>

    <entry>
        <fullUrl value="urn:uuid:b84cddc8-83da-4bcc-9fdc-5e78cf709944"/>
        <resource>
            <OrganizationAffiliation xmlns="http://hl7.org/fhir">
                <meta>
                    <profile value="http://dsf.dev/fhir/StructureDefinition/organization-affiliation"/>
                    <tag>
                        <system value="http://dsf.dev/fhir/CodeSystem/read-access-tag"/>
                        <code value="ALL"/>
                    </tag>
                </meta>
                <active value="true"/>
                <organization>
                    <reference value="urn:uuid:c4a7b553-01b1-4b50-bcb3-1467f5ae6791"/>
                    <type value="Organization"/>
                </organization>
                <participatingOrganization>
                    <reference value="urn:uuid:cf62edc2-cc5d-43ed-ac0e-caf09f7326c3"/>
                    <type value="Organization"/>
                </participatingOrganization>
                <code>
                    <coding>
                        <system value="http://dsf.dev/fhir/CodeSystem/organization-role"/>
                        <code value="DIC"/>
                    </coding>
                </code>
                <endpoint>
                    <reference value="urn:uuid:ad0a4700-6f4c-4f4b-bf70-3a7a3f24f2fa"/>
                    <type value="Endpoint"/>
                </endpoint>
            </OrganizationAffiliation>
        </resource>
        <request>
            <method value="POST"/>
            <url value="OrganizationAffiliation"/>
            <ifNoneExist
                    value="primary-organization:identifier=http://dsf.dev/sid/organization-identifier|medizininformatik-initiative.de&amp;participating-organization:identifier=http://dsf.dev/sid/organization-identifier|Test_DIC_1"/>
        </request>
    </entry>

    <entry>
        <fullUrl value="urn:uuid:01a2d3fa-8c4d-4cf3-b383-de2bb356245a"/>
        <resource>
            <OrganizationAffiliation xmlns="http://hl7.org/fhir">
                <meta>
                    <profile value="http://dsf.dev/fhir/StructureDefinition/organization-affiliation"/>
                    <tag>
                        <system value="http://dsf.dev/fhir/CodeSystem/read-access-tag"/>
                        <code value="ALL"/>
                    </tag>
                </meta>
                <active value="true"/>
                <organization>
                    <reference value="urn:uuid:c4a7b553-01b1-4b50-bcb3-1467f5ae6791"/>
                    <type value="Organization"/>
                </organization>
                <participatingOrganization>
                    <reference value="urn:uuid:55901940-02db-40bf-9a6e-bdfdd0ddb7bf"/>
                    <type value="Organization"/>
                </participatingOrganization>
                <code>
                    <coding>
                        <system value="http://dsf.dev/fhir/CodeSystem/organization-role"/>
                        <code value="DIC"/>
                    </coding>
                </code>
                <endpoint>
                    <reference value="urn:uuid:6b2ba3fb-b8eb-4677-86fa-9e5285736b92"/>
                    <type value="Endpoint"/>
                </endpoint>
            </OrganizationAffiliation>
        </resource>
        <request>
            <method value="POST"/>
            <url value="OrganizationAffiliation"/>
            <ifNoneExist
                    value="primary-organization:identifier=http://dsf.dev/sid/organization-identifier|medizininformatik-initiative.de&amp;participating-organization:identifier=http://dsf.dev/sid/organization-identifier|Test_DIC_2"/>
        </request>
    </entry>

    <entry>
        <fullUrl value="urn:uuid:69b7dfc3-e700-4c4f-9cdc-bb297d7a704e"/>
        <resource>
            <OrganizationAffiliation xmlns="http://hl7.org/fhir">
                <meta>
                    <profile value="http://dsf.dev/fhir/StructureDefinition/organization-affiliation"/>
                    <tag>
                        <system value="http://dsf.dev/fhir/CodeSystem/read-access-tag"/>
                        <code value="ALL"/>
                    </tag>
                </meta>
                <active value="true"/>
                <organization>
                    <reference value="urn:uuid:c4a7b553-01b1-4b50-bcb3-1467f5ae6791"/>
                    <type value="Organization"/>
                </organization>
                <participatingOrganization>
                    <reference value="urn:uuid:c9c81955-3ca6-40f9-9143-878bdef8bc96"/>
                    <type value="Organization"/>
                </participatingOrganization>
                <code>
                    <coding>
                        <system value="http://dsf.dev/fhir/CodeSystem/organization-role"/>
                        <code value="DIC"/>
                    </coding>
                </code>
                <endpoint>
                    <reference value="urn:uuid:d2de89b2-8eb4-45c4-8e6f-6c64a7af2b69"/>
                    <type value="Endpoint"/>
                </endpoint>
            </OrganizationAffiliation>
        </resource>
        <request>
            <method value="POST"/>
            <url value="OrganizationAffiliation"/>
            <ifNoneExist
                    value="primary-organization:identifier=http://dsf.dev/sid/organization-identifier|medizininformatik-initiative.de&amp;participating-organization:identifier=http://dsf.dev/sid/organization-identifier|Test_DIC_3"/>
        </request>
    </entry>

    <entry>
        <fullUrl value="urn:uuid:2c17b93a-9317-466f-a568-277c3f43e789"/>
        <resource>
            <OrganizationAffiliation xmlns="http://hl7.org/fhir">
                <meta>
                    <profile value="http://dsf.dev/fhir/StructureDefinition/organization-affiliation"/>
                    <tag>
                        <system value="http://dsf.dev/fhir/CodeSystem/read-access-tag"/>
                        <code value="ALL"/>
                    </tag>
                </meta>
                <active value="true"/>
                <organization>
                    <reference value="urn:uuid:c4a7b553-01b1-4b50-bcb3-1467f5ae6791"/>
                    <type value="Organization"/>
                </organization>
                <participatingOrganization>
                    <reference value="urn:uuid:9e40709b-c9a4-4f83-adfe-5a9f12c49cda"/>
                    <type value="Organization"/>
                </participatingOrganization>
                <code>
                    <coding>
                        <system value="http://dsf.dev/fhir/CodeSystem/organization-role"/>
                        <code value="DIC"/>
                    </coding>
                </code>
                <endpoint>
                    <reference value="urn:uuid:5e60441a-2f97-4e73-9552-232f1349d079"/>
                    <type value="Endpoint"/>
                </endpoint>
            </OrganizationAffiliation>
        </resource>
        <request>
            <method value="POST"/>
            <url value="OrganizationAffiliation"/>
            <ifNoneExist
                    value="primary-organization:identifier=http://dsf.dev/sid/organization-identifier|medizininformatik-initiative.de&amp;participating-organization:identifier=http://dsf.dev/sid/organization-identifier|Test_DIC_4"/>
        </request>
    </entry>
    <entry>
        <fullUrl value="urn:uuid:045733f1-3ea2-4efc-8b53-4707b2e1f63e"/>
        <resource>
            <OrganizationAffiliation xmlns="http://hl7.org/fhir">
                <meta>
                    <profile value="http://dsf.dev/fhir/StructureDefinition/organization-affiliation"/>
                    <tag>
                        <system value="http://dsf.dev/fhir/CodeSystem/read-access-tag"/>
                        <code value="ALL"/>
                    </tag>
                </meta>
                <active value="true"/>
                <organization>
                    <reference value="urn:uuid:c4a7b553-01b1-4b50-bcb3-1467f5ae6791"/>
                    <type value="Organization"/>
                </organization>
                <participatingOrganization>
                    <!--            BROKER-->
                    <reference value="urn:uuid:aa670c9a-5a6a-45ac-90e8-7e72b3c39f23"/>
                    <type value="Organization"/>
                </participatingOrganization>
                <code>
                    <coding>
                        <system value="http://dsf.dev/fhir/CodeSystem/organization-role"/>
                        <code value="DIC"/>
                    </coding>
                </code>
                <endpoint>
                    <reference value="urn:uuid:4179883e-2776-45c4-9d5a-3be299bbe39a"/>
                    <type value="Endpoint"/>
                </endpoint>
            </OrganizationAffiliation>
        </resource>
        <request>
            <method value="POST"/>
            <url value="OrganizationAffiliation"/>
            <ifNoneExist
                    value="primary-organization:identifier=http://dsf.dev/sid/organization-identifier|medizininformatik-initiative.de&amp;participating-organization:identifier=http://dsf.dev/sid/organization-identifier|Test_Broker"/>
        </request>
    </entry>
</Bundle>
